Folder: DPhil-work/SIBC StrucMag/processed_XRD_spectra

Note: README.md
# DPhil_python
First repository for python scripts on my DPhil

Included here are the first set of python scripts I made for my DPhil. They include general plotting functions for XRD and Raman data. As well as a more thorough 
analysis of PPMS data using Beans model.

File: Cu Metal_processed.csv
Angle,Intensity
5.00857,0.0133457
5.40247,0.0136381
5.79638,0.0105282
6.19029,0.014064
6.5842,0.0156316
6.97811,0.0146893
7.37202,0.00973807
7.76592,0.0151533
8.15983,0.00880178
8.55374,0.0162644
8.94765,0.00991365
9.34156,0.0168283
9.73547,0.0096451
10.1294,0.0158751
10.5233,0.00373152
10.9172,0.0199349
11.3111,0.0104254
11.705,0.0161588
12.0989,0.0131026
12.4928,0.00861447
12.8867,0.0103265
13.2806,0.00981441
13.6746,0.00891126
14.0685,0.00770537
14.4624,0.0116724
14.8563,0.011815
15.2502,0.0110852
15.6441,0.0123754
16.038,0.0154438
16.4319,0.0159868
16.8258,0.013621
17.2197,0.0141958
17.6136,0.0135574
18.0075,0.00935311
18.4015,0.0109644
18.7954,0.0102192
19.1893,0.0165075
19.5832,0.0123927
19.9771,0.00996818
20.371,0.011376
20.7649,0.0105163
21.1588,0.0147581
21.5527,0.0132703
21.9466,0.0114423
22.3405,0.0162874
22.7344,0.00810974
23.1284,0.0129147
23.5223,0.00467281
23.9162,0.00866551
24.3101,0.00751299
24.704,0.0123232
25.0979,0.0207227
25.4918,0.0138892
25.8857,0.011395
26.2796,0.0149352
26.6735,0.0105559
27.0674,0.0149797
27.4613,0.0143581
27.8553,0.0105059
28.2492,0.0173381
28.6431,0.0119608
29.037,0.0103446
29.4309,0.0175131
29.8248,0.0130411
30.2187,0.0135756
30.6126,0.00997661
31.0065,0.0139819
31.4004,0.0187256
31.7943,0.0114588
32.1883,0.0124905
32.5822,0.0102596
32.9761,0.00603806
33.37,0.0142895
33.7639,0.0140031
34.1578,0.0110271
34.5517,0.00888224
34.9456,0.014792
35.3395,0.0135994
35.7334,0.0108294
36.1273,0.0130742
36.5212,0.0158934
36.9152,0.0155715
37.3091,0.0139096
37.703,0.0195992
38.0969,0.0132382
38.4908,0.0123671
38.8847,0.00549102
39.2786,0.00973719
39.6725,0.0160185
40.0664,0.00941279
40.4603,0.0161165
40.8542,0.0130176
41.2481,0.00997603
41.6421,0.017852
42.036,0.0183698
42.4299,0.0171301
42.8238,0.0296739
43.2177,0.407867
43.6116,0.098184
44.0055,0.0212976
44.3994,0.0162052
44.7933,0.0105914
45.1872,0.0132628
45.5811,0.00872987
45.975,0.00996493
46.369,0.0124876
46.7629,0.0152659
47.1568,0.00948542
47.5507,0.0095636
47.9446,0.0122018
48.3385,0.0102133
48.7324,0.0177347
49.1263,0.0198493
49.5202,0.020858
49.9141,0.0534295
50.308,0.637721
50.7019,0.192131
51.0959,0.0300879
51.4898,0.0150909
51.8837,0.0184433
52.2776,0.0113237
52.6715,0.00919576
53.0654,0.00916994
53.4593,0.0116529
53.8532,0.017094
54.2471,0.0115731
54.641,0.0160119
55.0349,0.0113689
55.4289,0.0109615
55.8228,0.0148114
56.2167,0.0102866
56.6106,0.0102882
57.0045,0.0129766
57.3984,0.00436822
57.7923,0.0141327
58.1862,0.00939278
58.5801,0.011416
58.974,0.0113851
59.3679,0.0117327
59.7618,0.0116536
60.1558,0.0190136
60.5497,0.0190605
60.9436,0.00926439
61.3375,0.013642
61.7314,0.0102496
62.1253,0.0126564
62.5192,0.0148521
62.9131,0.012993
63.307,0.0127728
63.7009,0.0113454
64.0948,0.0157823
64.4887,0.0133965
64.8827,0.0119931
65.2766,0.00927513
65.6705,0.0130929
66.0644,0.0116789
66.4583,0.00667428
66.8522,0.0118545
67.2461,0.0131935
67.64,0.00610264
68.0339,0.0171864
68.4278,0.0121932
68.8217,0.0111396
69.2156,0.00990543
69.6096,0.0158685
70.0035,0.0150786
70.3974,0.0168391
70.7913,0.017718
71.1852,0.0220145
71.5791,0.0152708
71.973,0.0199085
72.3669,0.0144086
72.7608,0.014102
73.1547,0.017235
73.5486,0.0341142
73.9425,0.227276
74.3365,0.344504
74.7304,0.0327381
75.1243,0.0186488
75.5182,0.0115829
75.9121,0.0110327
76.306,0.0106658
76.6999,0.0084115
77.0938,0.0103997
77.4877,0.00961362
77.8816,0.00995818
78.2755,0.0136874
78.6695,0.0117197
79.0634,0.0106677
79.4573,0.0138535
79.8512,0.0117389
80.2451,0.0106204
80.639,0.0100302
81.0329,0.0207205
81.4268,0.0176669
81.8207,0.0134902
82.2146,0.0142265
82.6085,0.00971106
83.0024,0.013431
83.3964,0.0155247
83.7903,0.011198
84.1842,0.0148154
84.5781,0.0136631
84.972,0.00699026
85.3659,0.0146491
85.7598,0.0147447
86.1537,0.0117735
86.5476,0.0172391
86.9415,0.00996729
87.3354,0.00907267
87.7293,0.0103432
88.1233,0.012998
88.5172,0.013702
88.9111,0.0175697
89.305,0.0339849
89.6989,0.178919
90.0928,0.240898
90.4867,0.0526377
90.8806,0.0188987
91.2745,0.0117773
91.6684,0.0124177
92.0623,0.00733247
92.4562,0.00985965
92.8502,0.0122115
93.2441,0.0118919
93.638,0.0147182
94.0319,0.00580605
94.4258,0.0112299
94.8197,0.0199045
95.2136,0.0518025
95.6075,0.0222755
96.0014,0.0147032
96.3953,0.0125124
96.7892,0.0179556
97.1831,0.0120031
97.5771,0.0146495
97.971,0.00655144
98.3649,0.0116588
98.7588,0.0188579
99.1527,0.0210819
99.5466,0.0132653
99.9405,0.0127639
100.334,0.0114245
100.728,0.0120131
101.122,0.0144157
101.516,0.0120417
101.91,0.0134021
102.304,0.0131933
102.698,0.0178372
103.092,0.0144243
103.486,0.0148946
103.88,0.00962665
104.274,0.00915236
104.667,0.0122069
105.061,0.0126432
105.455,0.0120063
105.849,0.0115478
106.243,0.0117889
106.637,0.0130384
107.031,0.00848445
107.425,0.00655928
107.819,0.00813089
108.213,0.0102236
108.606,0.023409
109,0.0129456
109.394,0.0107975
109.788,0.0133507
110.182,0.0104166
110.576,0.0118357
110.97,0.0115243
111.364,0.00993847
111.758,0.0165896
112.152,0.00983179
112.546,0.0144998
112.939,0.00894561
113.333,0.0133768
113.727,0.00809861
114.121,0.00814271
114.515,0.0128588
114.909,0.00874194
115.303,0.00804627
115.697,0.0106267
116.091,0.018524
116.485,0.0518353
116.879,0.108171
117.272,0.077269
117.666,0.0198936
118.06,0.00781224
118.454,0.0093462
118.848,0.00802471
119.242,0.0167563
119.636,0.0100911
119.99,0.0102405

File: Fu21Gd-SM1a_processed.csv
Angle,Intensity
5.01057,0.0217353
5.40447,0.0242833
5.79838,0.0201383
6.19229,0.0206575
6.5862,0.0212617
6.98011,0.0293924
7.37402,0.0406585
7.76792,0.0302877
8.16183,0.0150906
8.55574,0.0328728
8.94965,0.0170778
9.34356,0.0225808
9.73747,0.0261747
10.1314,0.0203113
10.5253,0.0231928
10.9192,0.0293026
11.3131,0.019403
11.707,0.0150183
12.1009,0.0169891
12.4948,0.0267665
12.8887,0.021828
13.2826,0.0136467
13.6766,0.0156268
14.0705,0.019849
14.4644,0.0158888
14.8583,0.019071
15.2522,0.0303113
15.6461,0.0251156
16.04,0.0269866
16.4339,0.021117
16.8278,0.0276314
17.2217,0.0335445
17.6156,0.0249109
18.0095,0.0280354
18.4035,0.0264495
18.7974,0.0177988
19.1913,0.028659
19.5852,0.0278473
19.9791,0.0243458
20.373,0.0255517
20.7669,0.0264778
21.1608,0.0192936
21.5547,0.0240403
21.9486,0.0270927
22.3425,0.0493711
22.7364,0.646553
23.1304,0.0884955
23.5243,0.0395571
23.9182,0.0353801
24.3121,0.0360117
24.706,0.0249001
25.0999,0.0219297
25.4938,0.0185705
25.8877,0.0226915
26.2816,0.0302979
26.6755,0.0214535
27.0694,0.0220834
27.4633,0.013362
27.8573,0.0274219
28.2512,0.0316883
28.6451,0.0164991
29.039,0.0222138
29.4329,0.0323646
29.8268,0.0207833
30.2207,0.0349351
30.6146,0.0565329
31.0085,0.0126923
31.4024,0.0192411
31.7963,0.021221
32.1903,0.0277791
32.5842,0.0250554
32.9781,0.171163
33.372,0.0389059
33.7659,0.0192266
34.1598,0.0313002
34.5537,0.0223034
34.9476,0.0105578
35.3415,0.0230453
35.7354,0.0209305
36.1293,0.0273913
36.5232,0.0233463
36.9172,0.0275315
37.3111,0.0298247
37.705,0.0461907
38.0989,0.172381
38.4928,0.384556
38.8867,0.0546359
39.2806,0.0357486
39.6745,0.0182904
40.0684,0.0259292
40.4623,0.0265122
40.8562,0.0236446
41.2501,0.0125599
41.6441,0.0168832
42.038,0.0226055
42.4319,0.0262855
42.8258,0.0265568
43.2197,0.0290471
43.6136,0.0219281
44.0075,0.023486
44.4014,0.0123449
44.7953,0.0211485
45.1892,0.03112
45.5831,0.0610201
45.977,0.148716
46.371,0.799424
46.7649,0.204246
47.1588,0.0686888
47.5527,0.0480196
47.9466,0.0196909
48.3405,0.016582
48.7344,0.019699
49.1283,0.0151456
49.5222,0.0286491
49.9161,0.0117246
50.31,0.0189868
50.7039,0.0283234
51.0979,0.0232297
51.4918,0.025785
51.8857,0.025955
52.2796,0.0358653
52.6735,0.00079572
53.0674,0.0
53.4613,0.0291856
53.8552,0.0317264
54.2491,0.0588639
54.643,0.232489
55.0369,0.113839
55.4309,0.0355323
55.8248,0.0386146
56.2187,0.0135636
56.6126,0.0144997
57.0065,0.0237872
57.4004,0.0199576
57.7943,0.0283677
58.1882,0.0224326
58.5821,0.0234551
58.976,0.0290938
59.3699,0.0072031
59.7638,0.0215917
60.1578,0.0300343
60.5517,0.0220708
60.9456,0.0181381
61.3395,0.0182494
61.7334,0.0304845
62.1273,0.0324386
62.5212,0.00782505
62.9151,0.0176398
63.309,0.053252
63.7029,0.0297835
64.0968,0.0274183
64.4907,0.0339027
64.8847,0.0339966
65.2786,0.0177169
65.6725,0.0220078
66.0664,0.0325031
66.4603,0.0281154
66.8542,0.0301539
67.2481,0.0212934
67.642,0.0163387
68.0359,0.0228384
68.4298,0.0347306
68.8237,0.0386687
69.2176,0.13693
69.6116,0.0517967
70.0055,0.0196991
70.3994,0.0283085
70.7933,0.0153959
71.1872,0.0178954
71.5811,0.0199718
71.975,0.0394433
72.3689,0.130029
72.7628,0.073056
73.1567,0.035104
73.5506,0.0216906
73.9445,0.0297375
74.3385,0.0776631
74.7324,0.0275302
75.1263,0.0192575
75.5202,0.0228412
75.9141,0.0282574
76.308,0.0268437
76.7019,0.0248638
77.0958,0.0249031
77.4897,0.0221324
77.8836,0.0291544
78.2775,0.0245304
78.6715,0.0144099
79.0654,0.0242072
79.4593,0.0212757
79.8532,0.0317966
80.2471,0.0276175
80.641,0.0227919
81.0349,0.0289774
81.4288,0.0323719
81.8227,0.051311
82.2166,0.10625
82.6105,0.0428065
83.0044,0.0406861
83.3984,0.0321623
83.7923,0.014607
84.1862,0.0226375
84.5801,0.0303683
84.974,0.00625012
85.3679,0.0263617
85.7618,0.0165089
86.1557,0.0265875
86.5496,0.0239936
86.9435,0.0208728
87.3374,0.0367024
87.7313,0.02087
88.1253,0.0266572
88.5192,0.0165782
88.9131,0.0286127
89.307,0.0199425
89.7009,0.0192134
90.0948,0.0215591
90.4887,0.0445899
90.8826,0.0126978
91.2765,0.0193615
91.6704,0.0297982
92.0643,0.0458586
92.4582,0.113941
92.8522,0.0757806
93.2461,0.0386933
93.64,0.0262108
94.0339,0.0246409
94.4278,0.0229713
94.8217,0.00380416
95.2156,0.0187497
95.6095,0.0278193
96.0034,0.0307763
96.3973,0.0313592
96.7912,0.0272706
97.1851,0.0274318
97.5791,0.0298716
97.973,0.021754
98.3669,0.0276774
98.7608,0.0219197
99.1547,0.00790267
99.5486,0.00798953
99.9425,0.0180038
100.336,0.0279132
100.73,0.00774925
101.124,0.0354156
101.518,0.0308397
101.912,0.0254432
102.306,0.018742
102.7,0.0238258
103.094,0.0363358
103.488,0.0485059
103.882,0.0778271
104.276,0.0700923
104.669,0.0371071
105.063,0.0292288
105.457,0.0232256
105.851,0.0237886
106.245,0.0045004
106.639,0.0275233
107.033,0.028281
107.427,0.0290498
107.821,0.0297458
108.215,0.0221242
108.608,0.022499
109.002,0.0401255
109.396,0.0186295
109.79,0.0259188
110.184,0.0258757
110.578,0.0349465
110.972,0.0226316
111.366,0.0284531
111.76,0.0284447
112.154,0.0257739
112.548,0.0348925
112.941,0.0225696
113.335,0.0282253
113.729,0.0251431
114.123,0.0336721
114.517,0.0235318
114.911,0.0147889
115.305,0.0175651
115.699,0.0353376
116.093,0.0372278
116.487,0.03649
116.881,0.0669815
117.274,0.0868765
117.668,0.0528679
118.062,0.0304768
118.456,0.032836
118.85,0.0195605
119.244,0.01346
119.638,0.03125
119.992,0.0261836

File: Fu21Gd-SM1c_processed.csv
Angle,Intensity
5.01057,0.029663
5.40447,0.0413833
5.79838,0.0347898
6.19229,0.0313776
6.5862,0.040736
6.98011,0.0476411
7.37402,0.0339275
7.76792,0.056598
8.16183,0.0291121
8.55574,0.0365077
8.94965,0.0369805
9.34356,0.032617
9.73747,0.0411427
10.1314,0.0457913
10.5253,0.0393116
10.9192,0.0429011
11.3131,0.0495475
11.707,0.0276959
12.1009,0.0375729
12.4948,0.0297521
12.8887,0.0306507
13.2826,0.0314927
13.6766,0.0437542
14.0705,0.0406119
14.4644,0.0386196
14.8583,0.0379929
15.2522,0.0417906
15.6461,0.0397406
16.04,0.0340732
16.4339,0.0365222
16.8278,0.0336026
17.2217,0.0393523
17.6156,0.034725
18.0095,0.0313796
18.4035,0.0319421
18.7974,0.036395
19.1913,0.0260329
19.5852,0.0424739
19.9791,0.0425951
20.373,0.0332204
20.7669,0.0363864
21.1608,0.0293919
21.5547,0.0345429
21.9486,0.0298563
22.3425,0.0653811
22.7364,0.795121
23.1304,0.100953
23.5243,0.0506654
23.9182,0.0444437
24.3121,0.0406517
24.706,0.041545
25.0999,0.0274957
25.4938,0.0405716
25.8877,0.0364255
26.2816,0.033603
26.6755,0.0505083
27.0694,0.0376457
27.4633,0.0217001
27.8573,0.0424606
28.2512,0.0386534
28.6451,0.038528
29.039,0.0474615
29.4329,0.0312895
29.8268,0.033669
30.2207,0.0380251
30.6146,0.0486836
31.0085,0.0335933
31.4024,0.0359878
31.7963,0.016899
32.1903,0.0257116
32.5842,0.0388647
32.9781,0.217129
33.372,0.0471678
33.7659,0.0402567
34.1598,0.0194374
34.5537,0.0414462
34.9476,0.037636
35.3415,0.0354328
35.7354,0.0320737
36.1293,0.0365552
36.5232,0.0357712
36.9172,0.0452155
37.3111,0.0389285
37.705,0.0476192
38.0989,0.214889
38.4928,0.241041
38.8867,0.0685169
39.2806,0.0369281
39.6745,0.0397259
40.0684,0.0361006
40.4623,0.0345004
40.8562,0.0375696
41.2501,0.0391575
41.6441,0.0418345
42.038,0.035655
42.4319,0.0443495
42.8258,0.0448878
43.2197,0.0493659
43.6136,0.0469492
44.0075,0.042034
44.4014,0.0342113
44.7953,0.0411591
45.1892,0.0538724
45.5831,0.0655567
45.977,0.18597
46.371,0.960126
46.7649,0.181889
47.1588,0.0759425
47.5527,0.0528237
47.9466,0.0348217
48.3405,0.0361999
48.7344,0.0463436
49.1283,0.0461861
49.5222,0.0370484
49.9161,0.0387502
50.31,0.0400074
50.7039,0.0492167
51.0979,0.045874
51.4918,0.0248653
51.8857,0.0460975
52.2796,0.0291832
52.6735,0.0381878
53.0674,0.0315698
53.4613,0.0368382
53.8552,0.0569957
54.2491,0.0781301
54.643,0.280757
55.0369,0.109996
55.4309,0.0542302
55.8248,0.0228154
56.2187,0.0470962
56.6126,0.039199
57.0065,0.0403575
57.4004,0.0388082
57.7943,0.0425371
58.1882,0.0502048
58.5821,0.0380152
58.976,0.0386265
59.3699,0.0423652
59.7638,0.0504931
60.1578,0.0317087
60.5517,0.0319898
60.9456,0.0513233
61.3395,0.0406379
61.7334,0.0490453
62.1273,0.0406719
62.5212,0.036989
62.9151,0.0370417
63.309,0.0593725
63.7029,0.0409103
64.0968,0.0409973
64.4907,0.0373399
64.8847,0.0207876
65.2786,0.051644
65.6725,0.0370524
66.0664,0.043678
66.4603,0.0365594
66.8542,0.0196206
67.2481,0.0473345
67.642,0.0341838
68.0359,0.0166323
68.4298,0.0322334
68.8237,0.0434684
69.2176,0.140581
69.6116,0.0570669
70.0055,0.0360451
70.3994,0.0237764
70.7933,0.0521128
71.1872,0.0228442
71.5811,0.0394463
71.975,0.0628414
72.3689,0.150278
72.7628,0.0764992
73.1567,0.0474144
73.5506,0.0368387
73.9445,0.0499038
74.3385,0.0847423
74.7324,0.0357709
75.1263,0.0418487
75.5202,0.0427525
75.9141,0.0501534
76.308,0.0276514
76.7019,0.0398805
77.0958,0.043062
77.4897,0.0434015
77.8836,0.0408938
78.2775,0.0438101
78.6715,0.0378829
79.0654,0.0406497
79.4593,0.0400231
79.8532,0.0467215
80.2471,0.0315044
80.641,0.0429139
81.0349,0.0423441
81.4288,0.050279
81.8227,0.0792466
82.2166,0.11022
82.6105,0.0501726
83.0044,0.036899
83.3984,0.0401415
83.7923,0.0262795
84.1862,0.0318177
84.5801,0.0469712
84.974,0.0428679
85.3679,0.0337977
85.7618,0.0546392
86.1557,0.0488915
86.5496,0.0298533
86.9435,0.0182432
87.3374,0.0385088
87.7313,0.0415243
88.1253,0.0179077
88.5192,0.0341543
88.9131,0.0374016
89.307,0.0367705
89.7009,0.0390834
90.0948,0.0313617
90.4887,0.047062
90.8826,0.0393425
91.2765,0.0386594
91.6704,0.0429148
92.0643,0.0701038
92.4582,0.13909
92.8522,0.0711576
93.2461,0.0468607
93.64,0.0431803
94.0339,0.0438203
94.4278,0.0301923
94.8217,0.0454958
95.2156,0.0388991
95.6095,0.0367247
96.0034,0.0407209
96.3973,0.0382912
96.7912,0.0471875
97.1851,0.0422826
97.5791,0.035672
97.973,0.042691
98.3669,0.0311336
98.7608,0.0361175
99.1547,0.0458454
99.5486,0.0458537
99.9425,0.039812
100.336,0.045401
100.73,0.0187225
101.124,0.0384053
101.518,0.0377264
101.912,0.0331454
102.306,0.0391661
102.7,0.0315628
103.094,0.0430585
103.488,0.0649462
103.882,0.101239
104.276,0.0797963
104.669,0.0559253
105.063,0.0450214
105.457,0.0348329
105.851,0.0386223
106.245,0.0393952
106.639,0.028552
107.033,0.0380289
107.427,0.0352142
107.821,0.0194835
108.215,0.0404335
108.608,0.0469388
109.002,0.032907
109.396,0.0416947
109.79,0.0214827
110.184,0.0416691
110.578,0.0212662
110.972,0.0328345
111.366,0.0412744
111.76,0.0495524
112.154,0.0494433
112.548,0.0440789
112.941,0.0514757
113.335,0.0201123
113.729,0.0192302
114.123,0.0414158
114.517,0.0281841
114.911,0.0149803
115.305,0.0338286
115.699,0.0325387
116.093,0.0564793
116.487,0.0651469
116.881,0.0906772
117.274,0.102817
117.668,0.0731456
118.062,0.0496748
118.456,0.0297015
118.85,0.0360641
119.244,0.0307511
119.638,0.0462347
119.992,0.040198

File: SP11-SM3a_processed.csv
Angle,Intensity
5.01057,0.040405
5.40447,0.060984
5.79838,0.0478018
6.19229,0.0478733
6.5862,0.0566206
6.98011,0.0375799
7.37402,0.0806956
7.76792,0.0299918
8.16183,0.0418454
8.55574,0.0476368
8.94965,0.0519132
9.34356,0.0425234
9.73747,0.0784544
10.1314,0.0453445
10.5253,0.0376992
10.9192,0.0331757
11.3131,0.0493985
11.707,0.0634247
12.1009,0.0563757
12.4948,0.0560467
12.8887,0.0455944
13.2826,0.0624906
13.6766,0.0484252
14.0705,0.0653506
14.4644,0.0574763
14.8583,0.0904698
15.2522,0.0698301
15.6461,0.0492061
16.04,0.0349841
16.4339,0.0568621
16.8278,0.0380525
17.2217,0.0478326
17.6156,0.0564243
18.0095,0.0575245
18.4035,0.0561658
18.7974,0.0405365
19.1913,0.0441511
19.5852,0.055358
19.9791,0.0344445
20.373,0.0301443
20.7669,0.0396896
21.1608,0.0413221
21.5547,0.0457039
21.9486,0.0522577
22.3425,0.123821
22.7364,0.244671
23.1304,0.0975006
23.5243,0.0824759
23.9182,0.0650129
24.3121,0.0395006
24.706,0.0675873
25.0999,0.0396319
25.4938,0.0581438
25.8877,0.0437719
26.2816,0.0425411
26.6755,0.0641438
27.0694,0.0491065
27.4633,0.0471421
27.8573,0.0516506
28.2512,0.0558718
28.6451,0.0678223
29.039,0.0395846
29.4329,0.055092
29.8268,0.0295078
30.2207,0.0686825
30.6146,0.070571
31.0085,0.0747114
31.4024,0.0671244
31.7963,0.0494135
32.1903,0.0585087
32.5842,0.0554374
32.9781,0.0489931
33.372,0.0688534
33.7659,0.0374624
34.1598,0.0195176
34.5537,0.0328365
34.9476,0.055648
35.3415,0.0488397
35.7354,0.0605996
36.1293,0.0446458
36.5232,0.0544929
36.9172,0.0446641
37.3111,0.0634332
37.705,0.0715937
38.0989,0.298731
38.4928,0.225689
38.8867,0.0946764
39.2806,0.0486774
39.6745,0.0510058
40.0684,0.0568571
40.4623,0.0485225
40.8562,0.0360166
41.2501,0.059056
41.6441,0.0566054
42.038,0.0603305
42.4319,0.12759
42.8258,0.137956
43.2197,0.114469
43.6136,0.0467695
44.0075,0.0382607
44.4014,0.054569
44.7953,0.0498409
45.1892,0.058124
45.5831,0.150494
45.977,0.188924
46.371,0.761627
46.7649,0.152879
47.1588,0.0617385
47.5527,0.0735522
47.9466,0.0583925
48.3405,0.0556905
48.7344,0.0398371
49.1283,0.0383406
49.5222,0.0
49.9161,0.052967
50.31,0.0577568
50.7039,0.0562889
51.0979,0.0246226
51.4918,0.0435993
51.8857,0.0440481
52.2796,0.052228
52.6735,0.0649115
53.0674,0.0554108
53.4613,0.0675235
53.8552,0.0619631
54.2491,0.107149
54.643,0.349936
55.0369,0.0796823
55.4309,0.0107962
55.8248,0.0600282
56.2187,0.0616301
56.6126,0.0468621
57.0065,0.0535412
57.4004,0.0370246
57.7943,0.0382078
58.1882,0.0466325
58.5821,0.0578594
58.976,0.0534234
59.3699,0.0478704
59.7638,0.0223371
60.1578,0.0404431
60.5517,0.0537066
60.9456,0.022415
61.3395,0.0586088
61.7334,0.0585715
62.1273,0.0221682
62.5212,0.021807
62.9151,0.02139
63.309,0.0688343
63.7029,0.0461999
64.0968,0.0714542
64.4907,0.0562055
64.8847,0.0676645
65.2786,0.0639406
65.6725,0.0450769
66.0664,0.0449502
66.4603,0.0635153
66.8542,0.0551674
67.2481,0.0187231
67.642,0.0662645
68.0359,0.0542547
68.4298,0.0538325
68.8237,0.0352173
69.2176,0.0675652
69.6116,0.0335728
70.0055,0.054386
70.3994,0.0434918
70.7933,0.0646086
71.1872,0.0529592
71.5811,0.0583043
71.975,0.0601471
72.3689,0.186668
72.7628,0.0891278
73.1567,0.0612318
73.5506,0.0693592
73.9445,0.0986042
74.3385,0.159975
74.7324,0.0509141
75.1263,0.0336082
75.5202,0.0500982
75.9141,0.0427614
76.308,0.0644337
76.7019,0.0403176
77.0958,0.056116
77.4897,0.0338668
77.8836,0.0334344
78.2775,0.0459509
78.6715,0.0580942
79.0654,0.0442728
79.4593,0.0376961
79.8532,0.0369146
80.2471,0.0549368
80.641,0.0579078
81.0349,0.0574875
81.4288,0.0572572
81.8227,0.0922649
82.2166,0.116591
82.6105,0.064303
83.0044,0.0618637
83.3984,0.0371511
83.7923,0.0530379
84.1862,0.0393242
84.5801,0.046293
84.974,0.0522871
85.3679,0.0483214
85.7618,0.0617476
86.1557,0.0719691
86.5496,0.0359793
86.9435,0.0541589
87.3374,0.0492943
87.7313,0.0581765
88.1253,0.035273
88.5192,0.0477301
88.9131,0.0467622
89.307,0.0457552
89.7009,0.0810924
90.0948,0.0847673
90.4887,0.0625826
90.8826,0.0545746
91.2765,0.0531932
91.6704,0.0586834
92.0643,0.0786585
92.4582,0.189758
92.8522,0.0792111
93.2461,0.066922
93.64,0.0668829
94.0339,0.0488218
94.4278,0.0412795
94.8217,0.0502539
95.2156,0.0548611
95.6095,0.0395561
96.0034,0.0095599
96.3973,0.0422631
96.7912,0.0436053
97.1851,0.0391091
97.5791,0.0590266
97.973,0.0339547
98.3669,0.0611335
98.7608,0.0356891
99.1547,0.0181868
99.5486,0.0498641
99.9425,0.0499946
100.336,0.0588179
100.73,0.0616929
101.124,0.0566927
101.518,0.0556076
101.912,0.0503601
102.306,0.0495323
102.7,0.0440477
103.094,0.0527399
103.488,0.063266
103.882,0.116057
104.276,0.089196
104.669,0.0572908
105.063,0.0498771
105.457,0.0507486
105.851,0.0517343
106.245,0.0421935
106.639,0.0432212
107.033,0.0498618
107.427,0.0506338
107.821,0.0642708
108.215,0.0517641
108.608,0.0206126
109.002,0.0461312
109.396,0.0383865
109.79,0.0561463
110.184,0.0639718
110.578,0.0449826
110.972,0.0372675
111.366,0.059442
111.76,0.03696
112.154,0.0501093
112.548,0.0759172
112.941,0.0187012
113.335,0.0548447
113.729,0.0499508
114.123,0.0545403
114.517,0.0432208
114.911,0.052756
115.305,0.0559084
115.699,0.0622716
116.093,0.0390763
116.487,0.0489189
116.881,0.102626
117.274,0.120391
117.668,0.0863462
118.062,0.0661512
118.456,0.0664543
118.85,0.0569638
119.244,0.0388239
119.638,0.0452127
119.992,0.0546514