Folder: DPhil-work/DPhil-projects/SIBC StrucMag/processed_XRD_spectra

Note: README.md
# DPhil_python
First repository for python scripts on my DPhil

Included here are the first set of python scripts I made for my DPhil. They include general plotting functions for XRD and Raman data. As well as a more thorough 
analysis of PPMS data using Beans model.

File: Fu21Gd-SM1b_processed.csv
Angle,Intensity
5.01057,0.0445213
5.40447,0.0535663
5.79838,0.0585082
6.19229,0.0569651
6.5862,0.0567101
6.98011,0.0578239
7.37402,0.0864216
7.76792,0.0746742
8.16183,0.0508647
8.55574,0.0561499
8.94965,0.0469239
9.34356,0.0467868
9.73747,0.0683391
10.1314,0.0712239
10.5253,0.0459961
10.9192,0.0543966
11.3131,0.0591854
11.707,0.0699975
12.1009,0.0654011
12.4948,0.0441438
12.8887,0.0568503
13.2826,0.0668192
13.6766,0.0507508
14.0705,0.0561324
14.4644,0.043664
14.8583,0.0452933
15.2522,0.0491011
15.6461,0.0440899
16.04,0.0301842
16.4339,0.0374374
16.8278,0.0618346
17.2217,0.0457447
17.6156,0.0446836
18.0095,0.0534025
18.4035,0.0591859
18.7974,0.0535168
19.1913,0.0521692
19.5852,0.0478182
19.9791,0.0624989
20.373,0.0600097
20.7669,0.0522573
21.1608,0.0406257
21.5547,0.059906
21.9486,0.0592454
22.3425,0.0945229
22.7364,0.637203
23.1304,0.116548
23.5243,0.0888772
23.9182,0.0665757
24.3121,0.0570004
24.706,0.0562065
25.0999,0.0448264
25.4938,0.0647152
25.8877,0.0597833
26.2816,0.0339252
26.6755,0.0584104
27.0694,0.0569595
27.4633,0.0658072
27.8573,0.0528857
28.2512,0.0505432
28.6451,0.0575558
29.039,0.0450266
29.4329,0.0415489
29.8268,0.0458006
30.2207,0.0647549
30.6146,0.0722716
31.0085,0.0493728
31.4024,0.055898
31.7963,0.0558871
32.1903,0.0671962
32.5842,0.0698557
32.9781,0.266647
33.372,0.0678262
33.7659,0.0569298
34.1598,0.0278679
34.5537,0.0475585
34.9476,0.0641142
35.3415,0.0551424
35.7354,0.0609556
36.1293,0.0541907
36.5232,0.0536525
36.9172,0.0378272
37.3111,0.0699427
37.705,0.0792172
38.0989,0.262122
38.4928,0.261296
38.8867,0.0890388
39.2806,0.0586642
39.6745,0.0533483
40.0684,0.0581664
40.4623,0.0255914
40.8562,0.0634032
41.2501,0.0591816
41.6441,0.056606
42.038,0.0534738
42.4319,0.0347981
42.8258,0.0501386
43.2197,0.0607639
43.6136,0.0601943
44.0075,0.0574099
44.4014,0.0618135
44.7953,0.0479239
45.1892,0.0625089
45.5831,0.109919
45.977,0.238519
46.371,0.978092
46.7649,0.221855
47.1588,0.111101
47.5527,0.0722986
47.9466,0.0501414
48.3405,0.0480894
48.7344,0.0227484
49.1283,0.0422101
49.5222,0.0416196
49.9161,0.0531769
50.31,0.051776
50.7039,0.0675565
51.0979,0.0583014
51.4918,0.0454913
51.8857,0.0133396
52.2796,0.0542948
52.6735,0.0532879
53.0674,0.0370196
53.4613,0.0656478
53.8552,0.0548052
54.2491,0.114117
54.643,0.316129
55.0369,0.128453
55.4309,0.0772391
55.8248,0.0568735
56.2187,0.0685158
56.6126,0.063563
57.0065,0.0533391
57.4004,0.0635412
57.7943,0.0568505
58.1882,0.0210496
58.5821,0.0713475
58.976,0.0602103
59.3699,0.0557912
59.7638,0.0425416
60.1578,0.0614068
60.5517,0.0659859
60.9456,0.0566996
61.3395,0.0660384
61.7334,0.0506461
62.1273,0.0504639
62.5212,0.0611847
62.9151,0.0238737
63.309,0.069305
63.7029,0.0500103
64.0968,0.0762893
64.4907,0.0609228
64.8847,0.079572
65.2786,0.0764621
65.6725,0.0425565
66.0664,0.0502773
66.4603,0.0730506
66.8542,0.0691113
67.2481,0.0231237
67.642,0.0635496
68.0359,0.0578455
68.4298,0.060957
68.8237,0.0707538
69.2176,0.192394
69.6116,0.085531
70.0055,0.0471992
70.3994,0.0141066
70.7933,0.0395801
71.1872,0.0447749
71.5811,0.0677514
71.975,0.0785646
72.3689,0.159979
72.7628,0.109569
73.1567,0.0783791
73.5506,0.0609053
73.9445,0.0578361
74.3385,0.143192
74.7324,0.0595586
75.1263,0.0522919
75.5202,0.068883
75.9141,0.0361556
76.308,0.050957
76.7019,0.0456888
77.0958,0.0690465
77.4897,0.0388703
77.8836,0.0662124
78.2775,0.0581792
78.6715,0.0472561
79.0654,0.0389541
79.4593,0.0648294
79.8532,0.0598357
80.2471,0.0436508
80.641,0.0538052
81.0349,0.0616466
81.4288,0.0716181
81.8227,0.106924
82.2166,0.122921
82.6105,0.0692571
83.0044,0.0762285
83.3984,0.0599605
83.7923,0.0686414
84.1862,0.0526973
84.5801,0.047507
84.974,0.0629835
85.3679,0.0706588
85.7618,0.0537343
86.1557,0.0631714
86.5496,0.0538845
86.9435,0.0589574
87.3374,0.0218828
87.7313,0.0675006
88.1253,0.0482303
88.5192,0.0539421
88.9131,0.0667912
89.307,0.0467537
89.7009,0.0513999
90.0948,0.07053
90.4887,0.0934233
90.8826,0.0479365
91.2765,0.0564343
91.6704,0.0758623
92.0643,0.100984
92.4582,0.134109
92.8522,0.0989385
93.2461,0.0512993
93.64,0.0562787
94.0339,0.0610295
94.4278,0.0579946
94.8217,0.0546386
95.2156,0.0507435
95.6095,0.0196274
96.0034,0.0205394
96.3973,0.058514
96.7912,0.0541696
97.1851,0.041036
97.5791,0.0491082
97.973,0.0553597
98.3669,0.0690281
98.7608,0.0424099
99.1547,0.042699
99.5486,0.0565347
99.9425,0.0430163
100.336,0.0614364
100.73,0.0559141
101.124,0.0488931
101.518,0.0738856
101.912,0.0572134
102.306,0.0714428
102.7,0.0704318
103.094,0.0356373
103.488,0.0884643
103.882,0.109097
104.276,0.103294
104.669,0.0833425
105.063,0.0430683
105.457,0.0546273
105.851,0.0368886
106.245,0.0564611
106.639,0.0389549
107.033,0.0215058
107.427,0.0598356
107.821,0.0500045
108.215,0.070122
108.608,0.0252038
109.002,0.0442422
109.396,0.0523197
109.79,0.0449297
110.184,0.0266209
110.578,0.0684456
110.972,0.0592655
111.366,0.0593451
111.76,0.0534044
112.154,0.0590755
112.548,0.052742
112.941,0.0712786
113.335,0.0619329
113.729,0.0557323
114.123,0.0483669
114.517,0.0525316
114.911,0.050799
115.305,0.0695671
115.699,0.0341682
116.093,0.0559613
116.487,0.0986697
116.881,0.10008
117.274,0.128706
117.668,0.0846685
118.062,0.0655992
118.456,0.0322113
118.85,0.083961
119.244,0.067898
119.638,0.0531719
119.992,0.0479744

File: SuNAM21Gd-SM2a_processed.csv
Angle,Intensity
5.01057,0.104081
5.40447,0.106132
5.79838,0.0903527
6.19229,0.082155
6.5862,0.108038
6.98011,0.113067
7.37402,0.154339
7.76792,0.0924737
8.16183,0.0960155
8.55574,0.0567121
8.94965,0.0688119
9.34356,0.0611362
9.73747,0.0865346
10.1314,0.0869629
10.5253,0.0815248
10.9192,0.078097
11.3131,0.0855283
11.707,0.0669429
12.1009,0.0656632
12.4948,0.114167
12.8887,0.0985948
13.2826,0.108395
13.6766,0.0946334
14.0705,0.069365
14.4644,0.087516
14.8583,0.0928065
15.2522,0.0657449
15.6461,0.103386
16.04,0.0812106
16.4339,0.0902966
16.8278,0.0959827
17.2217,0.0851814
17.6156,0.0836486
18.0095,0.0852745
18.4035,0.0669184
18.7974,0.0673633
19.1913,0.0859761
19.5852,0.0773346
19.9791,0.0864784
20.373,0.0766752
20.7669,0.0740846
21.1608,0.0641418
21.5547,0.0622284
21.9486,0.13456
22.3425,0.227775
22.7364,0.569124
23.1304,0.192265
23.5243,0.12497
23.9182,0.100463
24.3121,0.107202
24.706,0.099395
25.0999,0.0835304
25.4938,0.0997912
25.8877,0.0682562
26.2816,0.09776
26.6755,0.115204
27.0694,0.082583
27.4633,0.0744883
27.8573,0.085336
28.2512,0.0515373
28.6451,0.13376
29.039,0.0703541
29.4329,0.094374
29.8268,0.0807141
30.2207,0.127404
30.6146,0.106736
31.0085,0.110827
31.4024,0.0593852
31.7963,0.0774332
32.1903,0.0669995
32.5842,0.105851
32.9781,0.110594
33.372,0.0695989
33.7659,0.104314
34.1598,0.0764535
34.5537,0.0817679
34.9476,0.0571003
35.3415,0.0567145
35.7354,0.0693777
36.1293,0.0940834
36.5232,0.073512
36.9172,0.0880254
37.3111,0.112205
37.705,0.129159
38.0989,0.346428
38.4928,0.400693
38.8867,0.13389
39.2806,0.114814
39.6745,0.0765006
40.0684,0.0592783
40.4623,0.0802288
40.8562,0.0553415
41.2501,0.0992225
41.6441,0.0903533
42.038,0.0848834
42.4319,0.0945219
42.8258,0.174052
43.2197,0.0868566
43.6136,0.166143
44.0075,0.0840787
44.4014,0.0647271
44.7953,0.094375
45.1892,0.11247
45.5831,0.0906293
45.977,0.381104
46.371,0.970283
46.7649,0.202788
47.1588,0.0837775
47.5527,0.10535
47.9466,0.0985359
48.3405,0.059601
48.7344,0.0930096
49.1283,0.0629143
49.5222,0.0820727
49.9161,0.102172
50.31,0.0846134
50.7039,0.0803315
51.0979,0.105479
51.4918,0.0632578
51.8857,0.0878779
52.2796,0.0819084
52.6735,0.0688798
53.0674,0.0854322
53.4613,0.0990786
53.8552,0.0788133
54.2491,0.156417
54.643,0.279877
55.0369,0.110936
55.4309,0.0942587
55.8248,0.0738015
56.2187,0.0906424
56.6126,0.0862945
57.0065,0.0968698
57.4004,0.08783
57.7943,0.0984943
58.1882,0.0946093
58.5821,0.0793519
58.976,0.0965537
59.3699,0.1069
59.7638,0.0985666
60.1578,0.0698756
60.5517,0.062441
60.9456,0.0774118
61.3395,0.10459
61.7334,0.0834285
62.1273,0.0832136
62.5212,0.0887882
62.9151,0.103811
63.309,0.0938252
63.7029,0.0987443
64.0968,0.107957
64.4907,0.0823393
64.8847,0.0759745
65.2786,0.0821486
65.6725,0.0931219
66.0664,0.0754673
66.4603,0.102513
66.8542,0.0601774
67.2481,0.110861
67.642,0.0968026
68.0359,0.109968
68.4298,0.100536
68.8237,0.0847369
69.2176,0.0840361
69.6116,0.0562929
70.0055,0.0973877
70.3994,0.0690361
70.7933,0.112316
71.1872,0.0895263
71.5811,0.066197
71.975,0.101649
72.3689,0.157662
72.7628,0.127081
73.1567,0.0818251
73.5506,0.0764029
73.9445,0.0496004
74.3385,0.0820861
74.7324,0.187618
75.1263,0.0504741
75.5202,0.106028
75.9141,0.0724185
76.308,0.0890385
76.7019,0.0731523
77.0958,0.0790496
77.4897,0.10311
77.8836,0.0842661
78.2775,0.0984373
78.6715,0.0726812
79.0654,0.0979215
79.4593,0.0657409
79.8532,0.0826812
80.2471,0.104946
80.641,0.0703293
81.0349,0.0698143
81.4288,0.080559
81.8227,0.103159
82.2166,0.0945311
82.6105,0.0945711
83.0044,0.0902259
83.3984,0.115227
83.7923,0.0637581
84.1862,0.0817381
84.5801,0.116819
84.974,0.0879309
85.3679,0.110195
85.7618,0.0782955
86.1557,0.0840153
86.5496,0.0789723
86.9435,0.0897111
87.3374,0.0849202
87.7313,0.0606953
88.1253,0.0901141
88.5192,0.0674145
88.9131,0.0894887
89.307,0.0594446
89.7009,0.0777419
90.0948,0.0824118
90.4887,0.0961035
90.8826,0.122734
91.2765,0.0805478
91.6704,0.0851431
92.0643,0.114247
92.4582,0.110311
92.8522,0.0982226
93.2461,0.121233
93.64,0.0896543
94.0339,0.0801629
94.4278,0.099298
94.8217,0.0861146
95.2156,0.100284
95.6095,0.100784
96.0034,0.0924032
96.3973,0.0881479
96.7912,0.0886934
97.1851,0.0940428
97.5791,0.0991847
97.973,0.0904834
98.3669,0.0749095
98.7608,0.091669
99.1547,0.0967461
99.5486,0.0625266
99.9425,0.113423
100.336,0.0910145
100.73,0.0740497
101.124,0.0942819
101.518,0.0935703
101.912,0.0656627
102.306,0.101272
102.7,0.0871955
103.094,0.0917073
103.488,0.10866
103.882,0.096211
104.276,0.108947
104.669,0.0922596
105.063,0.105796
105.457,0.0885443
105.851,0.0939457
106.245,0.0793694
106.639,0.0951273
107.033,0.0908792
107.427,0.0961711
107.821,0.128419
108.215,0.101476
108.608,0.0971166
109.002,0.0698682
109.396,0.110103
109.79,0.101444
110.184,0.0967371
110.578,0.109635
110.972,0.0866284
111.366,0.0915749
111.76,0.113331
112.154,0.0962238
112.548,0.100735
112.941,0.0863366
113.335,0.0912393
113.729,0.0804642
114.123,0.0951349
114.517,0.0845172
114.911,0.0837405
115.305,0.105911
115.699,0.0824308
116.093,0.096331
116.487,0.0866959
116.881,0.0703529
117.274,0.0959345
117.668,0.0764427
118.062,0.0711302
118.456,0.101674
118.85,0.0664028
119.244,0.0737964
119.638,0.0913583
119.992,0.0703365

File: SuNAM21Gd-SM2b_processed.csv
Angle,Intensity
5.01057,0.0431877
5.40447,0.0570662
5.79838,0.0548375
6.19229,0.0696223
6.5862,0.0727826
6.98011,0.101326
7.37402,0.182602
7.76792,0.0639368
8.16183,0.0488459
8.55574,0.0432642
8.94965,0.0439895
9.34356,0.0582199
9.73747,0.0389111
10.1314,0.0590601
10.5253,0.0705345
10.9192,0.0626333
11.3131,0.0440594
11.707,0.0705727
12.1009,0.0635993
12.4948,0.080927
12.8887,0.0608652
13.2826,0.0603393
13.6766,0.0704869
14.0705,0.0718335
14.4644,0.066206
14.8583,0.0694019
15.2522,0.0444464
15.6461,0.0458931
16.04,0.0624688
16.4339,0.0533927
16.8278,0.0426445
17.2217,0.0534473
17.6156,0.0586324
18.0095,0.0394961
18.4035,0.0237853
18.7974,0.0449316
19.1913,0.0628244
19.5852,0.0528916
19.9791,0.0532683
20.373,0.0500801
20.7669,0.0582244
21.1608,0.0578228
21.5547,0.0806523
21.9486,0.117568
22.3425,0.241538
22.7364,0.569651
23.1304,0.193808
23.5243,0.120843
23.9182,0.0775332
24.3121,0.0559654
24.706,0.0620785
25.0999,0.055216
25.4938,0.0365402
25.8877,0.0519802
26.2816,0.0557305
26.6755,0.0657317
27.0694,0.0635571
27.4633,0.0499528
27.8573,0.0740593
28.2512,0.0527946
28.6451,0.0646334
29.039,0.0628156
29.4329,0.0419248
29.8268,0.0422403
30.2207,0.0884036
30.6146,0.0847588
31.0085,0.0563266
31.4024,0.0724961
31.7963,0.0629462
32.1903,0.0517533
32.5842,0.0614642
32.9781,0.0726172
33.372,0.0570197
33.7659,0.0296333
34.1598,0.0394162
34.5537,0.0433235
34.9476,0.0597722
35.3415,0.0620425
35.7354,0.0415082
36.1293,0.060506
36.5232,0.0507695
36.9172,0.0563909
37.3111,0.0868934
37.705,0.0963289
38.0989,0.426937
38.4928,0.328169
38.8867,0.125613
39.2806,0.0623906
39.6745,0.0550772
40.0684,0.066073
40.4623,0.0442374
40.8562,0.0578663
41.2501,0.0653002
41.6441,0.0588176
42.038,0.0422331
42.4319,0.0899347
42.8258,0.12246
43.2197,0.0496576
43.6136,0.0929071
44.0075,0.0625907
44.4014,0.0612998
44.7953,0.0707533
45.1892,0.0513145
45.5831,0.0979848
45.977,0.414127
46.371,0.861621
46.7649,0.151952
47.1588,0.0721698
47.5527,0.0627254
47.9466,0.0550304
48.3405,0.0417435
48.7344,0.0645254
49.1283,0.0632406
49.5222,0.058064
49.9161,0.0655436
50.31,0.0630059
50.7039,0.080425
51.0979,0.0603149
51.4918,0.0636913
51.8857,0.0777706
52.2796,0.0553859
52.6735,0.0612633
53.0674,0.0634923
53.4613,0.0526431
53.8552,0.0759645
54.2491,0.182921
54.643,0.24262
55.0369,0.0781542
55.4309,0.0735317
55.8248,0.0597091
56.2187,0.0358084
56.6126,0.0367398
57.0065,0.0517268
57.4004,0.0387401
57.7943,0.0642909
58.1882,0.0581364
58.5821,0.0550238
58.976,0.0695645
59.3699,0.0600692
59.7638,0.0567166
60.1578,0.0677567
60.5517,0.0608719
60.9456,0.0367346
61.3395,0.0604717
61.7334,0.0637937
62.1273,0.0635934
62.5212,0.0785807
62.9151,0.0666799
63.309,0.0517411
63.7029,0.063266
64.0968,0.0517347
64.4907,0.0559096
64.8847,0.0596689
65.2786,0.0781763
65.6725,0.0661501
66.0664,0.0412307
66.4603,0.0588394
66.8542,0.080028
67.2481,0.0824575
67.642,0.0620115
68.0359,0.0545645
68.4298,0.0545239
68.8237,0.0405181
69.2176,0.0682633
69.6116,0.0400116
70.0055,0.0783386
70.3994,0.0659973
70.7933,0.0510564
71.1872,0.0639778
71.5811,0.0530803
71.975,0.0787922
72.3689,0.0977788
72.7628,0.0515881
73.1567,0.0476099
73.5506,0.0336311
73.9445,0.0616245
74.3385,0.0731353
74.7324,0.119033
75.1263,0.0737401
75.5202,0.0488887
75.9141,0.063038
76.308,0.0493682
76.7019,0.0602389
77.0958,0.0821869
77.4897,0.02938
77.8836,0.0632896
78.2775,0.0630433
78.6715,0.0488641
79.0654,0.0624478
79.4593,0.0621363
79.8532,0.0553284
80.2471,0.0435123
80.641,0.0334657
81.0349,0.0611764
81.4288,0.0908889
81.8227,0.069802
82.2166,0.0800539
82.6105,0.0702584
83.0044,0.034158
83.3984,0.0524603
83.7923,0.0630968
84.1862,0.0749997
84.5801,0.0577527
84.974,0.0580322
85.3679,0.0546062
85.7618,0.0467317
86.1557,0.0548115
86.5496,0.0548642
86.9435,0.0547791
87.3374,0.0646046
87.7313,0.0642135
88.1253,0.0604934
88.5192,0.0529707
88.9131,0.052349
89.307,0.0517459
89.7009,0.0431935
90.0948,0.0506548
90.4887,0.0422169
90.8826,0.076216
91.2765,0.0495649
91.6704,0.0681138
92.0643,0.0594461
92.4582,0.0681742
92.8522,0.0830604
93.2461,0.0499958
93.64,0.0572985
94.0339,0.0747693
94.4278,0.0433775
94.8217,0.0278295
95.2156,0.0556927
95.6095,0.0559527
96.0034,0.0685804
96.3973,0.0629382
96.7912,0.0631743
97.1851,0.0453608
97.5791,0.0409906
97.973,0.0668703
98.3669,0.0502004
98.7608,0.0729022
99.1547,0.0462805
99.5486,0.064244
99.9425,0.0539076
100.336,0.0635455
100.73,0.0404124
101.124,0.0487046
101.518,0.0441317
101.912,0.0618434
102.306,0.0515448
102.7,0.0514342
103.094,0.0892064
103.488,0.0780539
103.882,0.0733808
104.276,0.0859063
104.669,0.0531451
105.063,0.0538475
105.457,0.0581578
105.851,0.0683726
106.245,0.055713
106.639,0.0658157
107.033,0.0592089
107.427,0.0656153
107.821,0.0685389
108.215,0.0428223
108.608,0.0553581
109.002,0.0653924
109.396,0.0473269
109.79,0.0588302
110.184,0.0472038
110.578,0.0470682
110.972,0.0371087
111.366,0.0547741
111.76,0.0508182
112.154,0.0704575
112.548,0.0579446
112.941,0.0577793
113.335,0.0361805
113.729,0.0637344
114.123,0.0406739
114.517,0.0629042
114.911,0.0486226
115.305,0.0621479
115.699,0.0437836
116.093,0.0550576
116.487,0.0776734
116.881,0.0724881
117.274,0.0821512
117.668,0.066932
118.062,0.0545313
118.456,0.050976
118.85,0.0639969
119.244,0.0771735
119.638,0.0605819
119.992,0.0632614

File: SuNAM21Gd-SM2c_processed.csv
Angle,Intensity
5.01057,0.0563428
5.40447,0.0595007
5.79838,0.0452047
6.19229,0.0855113
6.5862,0.0718229
6.98011,0.128873
7.37402,0.200428
7.76792,0.0985864
8.16183,0.0294639
8.55574,0.0466542
8.94965,0.033961
9.34356,0.0745828
9.73747,0.0485064
10.1314,0.0527832
10.5253,0.0673929
10.9192,0.0808582
11.3131,0.0492012
11.707,0.051045
12.1009,0.0643562
12.4948,0.0594759
12.8887,0.0702572
13.2826,0.0484189
13.6766,0.0823719
14.0705,0.0623639
14.4644,0.0735665
14.8583,0.0921704
15.2522,0.0657872
15.6461,0.0487918
16.04,0.071952
16.4339,0.0523675
16.8278,0.0777451
17.2217,0.0640127
17.6156,0.0779134
18.0095,0.0762221
18.4035,0.0764527
18.7974,0.0573595
19.1913,0.0704023
19.5852,0.0633537
19.9791,0.0796135
20.373,0.0553305
20.7669,0.0707672
21.1608,0.0689685
21.5547,0.0562064
21.9486,0.124624
22.3425,0.2466
22.7364,0.68955
23.1304,0.230887
23.5243,0.106825
23.9182,0.109383
24.3121,0.0846074
24.706,0.0809651
25.0999,0.0632634
25.4938,0.0712836
25.8877,0.0609777
26.2816,0.0430603
26.6755,0.0673721
27.0694,0.0541853
27.4633,0.0663704
27.8573,0.0610431
28.2512,0.0750988
28.6451,0.0951403
29.039,0.0711685
29.4329,0.0580685
29.8268,0.050142
30.2207,0.0816372
30.6146,0.120169
31.0085,0.073021
31.4024,0.0593853
31.7963,0.0738428
32.1903,0.0427154
32.5842,0.0609905
32.9781,0.0787968
33.372,0.0541027
33.7659,0.0586696
34.1598,0.0587293
34.5537,0.0586823
34.9476,0.0625994
35.3415,0.0797024
35.7354,0.0796563
36.1293,0.0696844
36.5232,0.0725334
36.9172,0.0685435
37.3111,0.0839108
37.705,0.0920285
38.0989,0.357002
38.4928,0.430654
38.8867,0.125663
39.2806,0.0707848
39.6745,0.0723412
40.0684,0.0585965
40.4623,0.0604827
40.8562,0.077672
41.2501,0.0709217
41.6441,0.0709776
42.038,0.0577797
42.4319,0.0771562
42.8258,0.119892
43.2197,0.0720773
43.6136,0.118194
44.0075,0.0803401
44.4014,0.0649573
44.7953,0.0837528
45.1892,0.0623543
45.5831,0.102945
45.977,0.364317
46.371,0.904574
46.7649,0.182161
47.1588,0.102962
47.5527,0.0825284
47.9466,0.0806385
48.3405,0.0520576
48.7344,0.0661502
49.1283,0.0632733
49.5222,0.0553773
49.9161,0.0607166
50.31,0.0569571
50.7039,0.0664719
51.0979,0.0710794
51.4918,0.0347268
51.8857,0.0780862
52.2796,0.0520774
52.6735,0.0687724
53.0674,0.0678986
53.4613,0.0709147
53.8552,0.0739229
54.2491,0.148507
54.643,0.231425
55.0369,0.0802248
55.4309,0.0665547
55.8248,0.0872823
56.2187,0.0638511
56.6126,0.0510212
57.0065,0.0614652
57.4004,0.0530202
57.7943,0.0754731
58.1882,0.0599659
58.5821,0.080987
58.976,0.0664472
59.3699,0.0829361
59.7638,0.096759
60.1578,0.0311302
60.5517,0.0411729
60.9456,0.0651568
61.3395,0.0647322
61.7334,0.0642016
62.1273,0.0533016
62.5212,0.0632365
62.9151,0.0673784
63.309,0.0575777
63.7029,0.0518593
64.0968,0.066592
64.4907,0.088635
64.8847,0.0451959
65.2786,0.0512891
65.6725,0.0660613
66.0664,0.0847961
66.4603,0.0445522
66.8542,0.0654902
67.2481,0.050372
67.642,0.0806337
68.0359,0.0691541
68.4298,0.0766177
68.8237,0.0643221
69.2176,0.0680632
69.6116,0.0632206
70.0055,0.0475027
70.3994,0.0570448
70.7933,0.0689491
71.1872,0.0505144
71.5811,0.0674892
71.975,0.0706527
72.3689,0.0835814
72.7628,0.062127
73.1567,0.0531629
73.5506,0.0618573
73.9445,0.0619157
74.3385,0.0533261
74.7324,0.12979
75.1263,0.0584824
75.5202,0.0543449
75.9141,0.0635339
76.308,0.0501964
76.7019,0.0753904
77.0958,0.05546
77.4897,0.0451768
77.8836,0.0684096
78.2775,0.0508376
78.6715,0.060338
79.0654,0.0684583
79.4593,0.0600319
79.8532,0.0502038
80.2471,0.0712545
80.641,0.0544354
81.0349,0.0206307
81.4288,0.0704097
81.8227,0.092487
82.2166,0.0836124
82.6105,0.0772251
83.0044,0.0489357
83.3984,0.0628014
83.7923,0.054249
84.1862,0.0632384
84.5801,0.0746856
84.974,0.0497322
85.3679,0.0633849
85.7618,0.0672971
86.1557,0.0709927
86.5496,0.0709058
86.9435,0.0542785
87.3374,0.0628758
87.7313,0.0774196
88.1253,0.0665496
88.5192,0.0835798
88.9131,0.0663276
89.307,0.0662358
89.7009,0.0801102
90.0948,0.0619114
90.4887,0.0729341
90.8826,0.0855628
91.2765,0.0475306
91.6704,0.0724116
92.0643,0.0822256
92.4582,0.0758919
92.8522,0.0613757
93.2461,0.0574254
93.64,0.0366486
94.0339,0.0536487
94.4278,0.0628611
94.8217,0.0813011
95.2156,0.0750647
95.6095,0.0449516
96.0034,0.0755599
96.3973,0.0642461
96.7912,0.0553106
97.1851,0.0716105
97.5791,0.0848478
97.973,0.0713243
98.3669,0.0635187
98.7608,0.0634751
99.1547,0.0443156
99.5486,0.0635032
99.9425,0.071282
100.336,0.0783391
100.73,0.050028
101.124,0.0848732
101.518,0.0749852
101.912,0.0593291
102.306,0.0780567
102.7,0.0708907
103.094,0.090094
103.488,0.0628637
103.882,0.0838769
104.276,0.0773968
104.669,0.0666489
105.063,0.074002
105.457,0.0585687
105.851,0.084036
106.245,0.0708078
106.639,0.0495972
107.033,0.0782305
107.427,0.0550275
107.821,0.0598337
108.215,0.0719986
108.608,0.0756955
109.002,0.0556851
109.396,0.0824069
109.79,0.0507126
110.184,0.0556284
110.578,0.0601625
110.972,0.0823734
111.366,0.0602223
111.76,0.060294
112.154,0.0603958
112.548,0.0559889
112.941,0.0688766
113.335,0.0728089
113.729,0.0832533
114.123,0.0567168
114.517,0.0612994
114.911,0.0765763
115.305,0.0794713
115.699,0.0504497
116.093,0.0498421
116.487,0.0629687
116.881,0.0771461
117.274,0.0732706
117.668,0.0762731
118.062,0.0823365
118.456,0.0850608
118.85,0.0606204
119.244,0.0466023
119.638,0.0743129
119.992,0.0825771